Folder: 1D04

Note: README.md
# survivingD04
A study-guide to 1D04, updated weekly. Feel free to copy and use for ur own purposes, enjoy!

File: XRD_example1.txt
10	5.08267
10.06	5.23934
10.12	4.34966
10.18	4.46366
10.24	5.05252
10.3	5.16487
10.36	5.11601
10.42	4.68873
10.48	4.89472
10.54	4.97516
10.6	5.51052
10.66	5.81287
10.72	5.67767
10.78	5.54742
10.84	5.18776
10.9	5.40222
10.96	5.53865
11.02	5.67321
11.08	5.71893
11.14	5.81869
11.2	6.96196
11.26	7.35743
11.32	8.25242
11.38	8.45784
11.44	9.59934
11.5	10.9197
11.56	12.704
11.62	15.1154
11.68	18.0368
11.74	23.1044
11.8	28.5381
11.86	36.6768
11.92	47.5202
11.98	61.6597
12.04	76.6008
12.1	89.774
12.16	98.2741
12.22	99.4413
12.28	92.0653
12.34	79.7467
12.4	64.7302
12.46	50.312
12.52	38.6865
12.58	29.7275
12.64	22.4826
12.7	17.5345
12.76	13.9688
12.82	11.5184
12.88	9.72702
12.94	8.55617
13	7.76388
13.06	6.5831
13.12	5.95514
13.18	5.80021
13.24	6.53457
13.3	5.37369
13.36	4.2385
13.42	4.51777
13.48	4.85861
13.54	4.37629
13.6	4.57168
13.66	4.249
13.72	3.92767
13.78	3.95685
13.84	4.0086
13.9	4.72709
13.96	4.3664
14.02	4.00551
14.08	3.88249
14.14	4.47832
14.2	4.84237
14.26	5.38479
14.32	5.17953
14.38	5.19276
14.44	5.32776
14.5	5.39932
14.56	6.09614
14.62	6.84961
14.68	7.02492
14.74	8.08908
14.8	9.19063
14.86	11.0223
14.92	14.1811
14.98	18.1034
15.04	21.0242
15.1	26.1823
15.16	34.4811
15.22	44.2839
15.28	55.9299
15.34	66.9256
15.4	75.4015
15.46	79.272*
15.52	76.3401
15.58	67.0245
15.64	55.576
15.7	44.8536
15.76	34.2943
15.82	26.4592
15.88	21.1021
15.94	16.5411
16	12.8426
16.06	10.5587
16.12	8.89153
16.18	8.13689
16.24	7.30338
16.3	6.13701
16.36	5.30469
16.42	5.27162
16.48	4.95504
16.54	4.94283
16.6	5.39121
16.66	5.09684
16.72	5.13551
16.78	6.07114
16.84	7.56081
16.9	8.91944
16.96	9.8633
17.02	11.8514
17.08	14.7322
17.14	17.55048
17.2	20.6196
17.26	21.6487
17.32	21.4424
17.38	19.3116
17.44	16.7475
17.5	14.1944
17.56	12.0379
17.62	9.88801
17.68	8.59852
17.74	7.77643
17.8	7.06121
17.86	5.83319
17.92	4.77827
17.98	3.81941
18.04	3.51362
18.1	3.086
18.16	2.69849
18.22	2.83728
18.28	2.454
18.34	2.12784
18.4	1.87363
18.46	2.08176
18.52	2.26378
18.58	1.90507
18.64	1.80398
18.7	2.2803
18.76	2.32116
18.82	2.0686
18.88	2.16103
18.94	2.07027
19	2.39488
19.06	2.22642
19.12	2.14486
19.18	1.97228
19.24	1.81965
19.3	2.24739
19.36	2.52627
19.42	2.41184
19.48	2.40867
19.54	2.23518
19.6	2.11841
19.66	2.13589
19.72	1.88443
19.78	2.23193
19.84	1.87265
19.9	2.11389
19.96	1.8082
20.02	1.68271
20.08	1.62927
20.14	1.64978
20.2	1.70589
20.26	1.68175
20.32	1.74333
20.38	2.35451
20.44	2.34378
20.5	1.93943
20.56	2.03108
20.62	2.47934
20.68	2.83009
20.74	2.52806
20.8	2.14847
20.86	2.30174
20.92	2.40897
20.98	2.66799
21.04	2.35321
21.1	1.89975
21.16	2.02168
21.22	2.12341
21.28	2.21151
21.34	2.16447
21.4	2.08188
21.46	2.03285
21.52	2.33211
21.58	2.0876
21.64	2.1476
21.7	2.23692
21.76	2.28637
21.82	1.90718
21.88	2.10732
21.94	1.99718
22	2.45718
22.06	2.48429
22.12	3.2703
22.18	3.15053
22.24	3.10373
22.3	3.14963
22.36	3.44944
22.42	4.0597
22.48	5.0027
22.54	5.3376
22.6	7.41428
22.66	8.47557
22.72	10.955
22.78	13.7376
22.84	18.4959
22.9	25.2998
22.96	32.5926
23.02	42.869
23.08	53.0374
23.14	61.2351
23.2	65.8377
23.26	65.8404
23.32	60.373
23.38	52.1629
23.44	42.2718
23.5	33.3799
23.56	25.5901
23.62	19.25
23.68	14.6561
23.74	12.3137
23.8	10.6778
23.86	9.18895
23.92	8.52006
23.98	7.40621
24.04	7.00041
24.1	7.83346
24.16	8.9546
24.22	10.6732
24.28	12.3366
24.34	14.1823
24.4	15.6606
24.46	16.3176
24.52	15.6236
24.58	14.0142
24.64	12.0466
24.7	9.84105
24.76	8.25557
24.82	6.09319
24.88	4.723
24.94	4.18843
25	3.71431
25.06	3.49717
25.12	3.49105
25.18	3.75969
25.24	3.53775
25.3	3.22172
25.36	3.51463
25.42	4.08442
25.48	4.15368
25.54	5.29307
25.6	6.35403
25.66	7.35214
25.72	7.49663
25.78	7.02468
25.84	6.78836
25.9	6.20303
25.96	5.38553
26.02	5.08114
26.08	3.80567
26.14	3.49509
26.2	3.4516
26.26	3.58083
26.32	2.9991
26.38	2.89444
26.44	3.19895
26.5	3.35362
26.56	3.22348
26.62	3.07673
26.68	3.26832
26.74	3.31566
26.8	3.25114
26.86	3.39231
26.92	3.60247
26.98	3.9378
27.04	5.0681
27.1	6.56148
27.16	7.49089
27.22	9.57248
27.28	11.3925
27.3	12.0994