Folder: 1D04/Week 10

Note: Week 10/Problem1 - write up.txt
define constants

def Convert:

    define two lists for each type of value:

    degrees
    intensity
    peak degrees
    peak intensity

    for:
        go through each line in a file 
        and sort data into each of the 
        4 lists above

        if:
            if entry has a star sort it into a separate list
            and delete the star for further data processing
        
    return each of the 4 lists

def Plotting(degrees and intensity):
    set the parameters of the plot graphs and output the data

def CalculateT(degrees,intensity,peak degrees, peak intensity):
    define local variables

    select a point where the loop will start to increase efficiency
    this point is selected to be right before each peak variable

    for:
        for each peak calculate a T value
    
    avarage the calculated T values

    return the avarage value of T

def CalculateB():

    find the optimal position for the half of max intensity
    do this by testing each point on the each side of the optimal level
    and find the one with the lowest deviation from optimal

    convert for max and min degrees and find the value of b for each peak

XDR_analysis():

    treat this as main

    open file and pass it into convert

    Calculate T values

    Plot the data


Test 1 for function AverageT()
Input: AverageT([1,2,3,5])
Expected Output: 2.75
Actual Output: 2.75
Result: Pass

Test 2 for function AverageT()
Input: AverageT([0,100000000])
Expected Output: 50000000
Actual Output: 50000000.0
Result: Pass

Test 3 for function AverageT()
Input: AverageT([])
Expected Output: zero division error
Actual Output: ZeroDivisionError: division by zero
Result: Pass

The results do make sense as the fit in the 1 to 100 nanometer range outlined
in the project specification document. As well as the fact that the wider peaks
on graph 1 did correspond with a lower particle size when compared to data set 2.

Reflection:
    If this was a real project i would test the data manually using a ruller or another 
method to approximate the results. I would do this for 2/3 data sets and then compare those
to the results recieved using the script. If the trends from the manula methods remain in the
computerized results i would consider the results accurate.

    Moving forward, I would aim to optimize the algorithm to, first: take less memory and optimize calculations to make 
processing of large amounts of data less time consuming. Second, i would aim to account for any unexpected 
situations or errors that could occur when using the data collected, such as missing varibales or zero data points.

Note: Week 10/Problem2 - pseudo.txt
class Date:
    def __init__():
        define object with self.d = date and etc

    def getDay:
        return self.d

    def getMonth:
        similar to prev

    def getYear:
        similar to prev

    def daysInMonth():
        use calendar library to determine how many days are in each months
        return the int number of days

    def stringconversion():
        return the string output of the object for tesing and legibility

    def Next():
        if:
            the selected day isnt the last day of month, return the current day + 1

        elif:
            if the current day is the last day of the month and the month is not december
            return the first day of the month + 1

        elif:
            if the day is the last day of the year return the first day of jan and add 1 to the
            current year

        else:
            return 0,0,0 if something triggers an exception

    def Prev():
        same principles as the prev method but with reversed parameters

    def isBefore():
        if the self. year is higher than the passed object year, return True

        if the self. month is higher and year is the same .. return True

        if the self. day is higher and year/month is the same .. return True

        else:
            return False

    def isAfter():
        same principles as the prev method but with reversed parameters

    def add_days():

        while:
            add days to the current day while decreasing the passed integer
        
            account for years and months by resetting the days counter to 1
            every time the month ends and do similar for years

        return the resulting Date(day,month,year)

    def daysBetween():
        redefine local variables

        simple method if the months and years are the same.

        if the passed in object "d" is after:
            
            call in the aux function
        
        if the passed in object "d" is before:

            swap the self.d.. and the passed objects data places and 
            call in the aux function

            (done for simplicity of code)

        if the object is equal to the local object return 0 is 
        show that objects are equal.

    def daysBetweenAux():

        add the days left in the current month -> store in x1

        situation1:
            years are the same but months different:
            
            while loop that keeps adding the month days to x2 until the
            month before the target is reached. once reached add the objects
            target day to the x2 counter

        situation2:
            years and months are different:

            same principle as before but add the years in between the two variables
            (cycle through the months while adding the number of days in each one of them)

        summ up the x1 x2 and x3 and return as the "days in between" int

Questions:
1. No, it can be called anything like "myself" or anything else. Since it is

Note: README.md
# survivingD04
A study-guide to 1D04, updated weekly. Feel free to copy and use for ur own purposes, enjoy!

File: XRD_example2.txt
10	7.30043
10.1	6.43345
10.2	6.2144
10.3	5.84211
10.4	6.55024
10.5	6.5581
10.6	6.20032
10.7	6.18567
10.8	6.06608
10.9	5.39576
11	5.67558
11.1	4.9306
11.2	5.50389
11.3	6.50341
11.4	6.05614
11.5	5.06097
11.6	5.46134
11.7	4.95701
11.8	4.86216
11.9	5.2128
12	5.37365
12.1	5.43857
12.2	5.2577
12.3	6.20459
12.4	6.67037
12.5	7.96222
12.6	8.88848
12.7	9.56821
12.8	9.24277
12.9	10.0691
13	14.9441
13.1	31.5069
13.2	70.7828
13.3	100*
13.4	82.0569
13.5	42.4965
13.6	18.818
13.7	19.6927
13.8	28.5898
13.9	39.4562
14	39.4279
14.1	26.175
14.2	19.1893
14.3	26.0045
14.4	43.8489
14.5	69.3431
14.6	95.1147*
14.7	78.6838
14.8	39.844
14.9	15.7175
15	7.95362
15.1	6.47349
15.2	6.75549
15.3	7.03578
15.4	6.06574
15.5	5.57652
15.6	5.75467
15.7	5.65184
15.8	5.60901
15.9	5.92876
16	5.09588
16.1	5.24512
16.2	5.16065
16.3	5.96015
16.4	5.31494
16.5	5.26964
16.6	5.57682
16.7	5.14799
16.8	4.75416
16.9	4.60321
17	4.36586
17.1	4.56312
17.2	5.49247
17.3	5.05124
17.4	4.36828
17.5	4.74878
17.6	5.04407
17.7	5.26662
17.8	5.92781
17.9	6.12253
18	5.0965
18.1	6.19785
18.2	6.69773
18.3	6.15164
18.4	6.11821
18.5	6.07548
18.6	7.52398
18.7	17.6349
18.8	32.0246
18.9	35.9732
19	25.2081
19.1	13.8522
19.2	7.9074
19.3	6.84946
19.4	6.631
19.5	6.54035
19.6	6.75126
19.7	7.50867
19.8	9.74268
19.9	10.1902
20	13.2751
20.1	19.0891
20.2	32.202
20.3	34.9837
20.4	22.537
20.5	11.8627
20.6	7.37599
20.7	6.44381
20.8	5.30635
20.9	5.07661
21	5.25272
21.1	5.6337
21.2	4.5256
21.3	4.42323
21.4	4.81201
21.5	4.04042
21.6	3.69925
21.7	4.10245
21.8	3.7985
21.9	3.89361
22	3.25747
22.1	3.50336
22.2	3.49249
22.3	3.44741
22.4	3.67477
22.5	3.57826
22.6	3.65555
22.7	3.69009
22.8	3.94009
22.9	6.75905
23	8.71829
23.1	9.20999
23.2	7.35753
23.3	5.66483
23.4	4.83531
23.5	5.14646
23.6	5.33782
23.7	4.50352
23.8	4.30215
23.9	4.28582
24	4.78479
24.1	4.22027
24.2	3.97138
24.3	5.70835
24.4	7.58102
24.5	17.6101
24.6	38.3898
24.7	52.2763*
24.8	42.1486
24.9	21.2051
25	8.13881
25.1	5.21003
25.2	4.35263
25.3	4.10262
25.4	3.81825
25.5	3.93635
25.6	3.72129
25.7	3.60566
25.8	3.53574
25.9	3.78232
26	4.39194
26.1	3.72593
26.2	4.19416
26.3	4.02657
26.4	4.19329
26.5	4.41649
26.6	5.08916
26.7	5.29987
26.8	6.13294
26.9	5.80511
27	5.10851
27.1	6.07
27.2	5.96173
27.3	5.90146